File: APS/data_viewing/WAXS-Control2-3.csv
# #q, WAXS_int
1.46697,1078.5
1.47041,1097.97
1.47385,1100.34
1.47729,1111.9
1.48073,1112.58
1.48417,1123.23
1.48761,1128.95
1.49106,1127.47
1.4945,1127.4
1.49794,1135.08
1.50138,1135.75
1.50482,1139.75
1.50826,1144.38
1.51171,1143
1.51515,1148.13
1.51859,1149.29
1.52203,1151.76
1.52547,1154.73
1.52891,1158.25
1.53235,1157.29
1.5358,1159.94
1.53924,1165.92
1.54268,1166.46
1.54612,1179.82
1.54956,1173.07
1.553,1174.43
1.55644,1180.14
1.55989,1179.36
1.56333,1186.85
1.56677,1183.96
1.57021,1182.17
1.57365,1192.04
1.57709,1189.8
1.58053,1194.39
1.58398,1197.39
1.58742,1195.52
1.59086,1197.86
1.5943,1199.68
1.59774,1204.53
1.60118,1205.04
1.60462,1208.92
1.60807,1214.28
1.61151,1208.12
1.61495,1210.51
1.61839,1217.41
1.62183,1215.29
1.62527,1219.61
1.62872,1215
1.63216,1219.76
1.6356,1224.67
1.63904,1225.69
1.64248,1226.97
1.64592,1226.06
1.64936,1226.52
1.65281,1228.31
1.65625,1230.26
1.65969,1229.66
1.66313,1231.68
1.66657,1235.41
1.67001,1231.9
1.67345,1237.79
1.6769,1241.94
1.68034,1238.82
1.68378,1242.49
1.68722,1240.09
1.69066,1242.29
1.6941,1242.52
1.69754,1240.91
1.70099,1246.9
1.70443,1245.05
1.70787,1247.74
1.71131,1246.64
1.71475,1245.69
1.71819,1244.95
1.72163,1248.47
1.72508,1251.02
1.72852,1247.72
1.73196,1245.78
1.7354,1251.81
1.73884,1250.31
1.74228,1249.46
1.74572,1246.71
1.74917,1248.56
1.75261,1251.4
1.75605,1247.03
1.75949,1252.74
1.76293,1248.23
1.76637,1244.19
1.76982,1250.19
1.77326,1248.55
1.7767,1249.33
1.78014,1245
1.78358,1238.96
1.78702,1250.81
1.79046,1251.91
1.79391,1238.47
1.79735,1241.09
1.80079,1239.62
1.80423,1239.17
1.80767,1235.5
1.81111,1237.44
1.81455,1237.45
1.818,1235.45
1.82144,1231.2
1.82488,1232.49
1.82832,1232.64
1.83176,1228.61
1.8352,1224.7
1.83864,1223.4
1.84209,1224.31
1.84553,1221.17
1.84897,1218.98
1.85241,1218.05
1.85585,1212.42
1.85929,1210.69
1.86273,1211.17
1.86618,1209.85
1.86962,1204.64
1.87306,1205.29
1.8765,1202.3
1.87994,1197.28
1.88338,1196.73
1.88683,1193.73
1.89027,1190.92
1.89371,1184.81
1.89715,1184.65
1.90059,1182.19
1.90403,1177.1
1.90747,1178.51
1.91092,1174.13
1.91436,1169.54
1.9178,1170.98
1.92124,1165.22
1.92468,1160.72
1.92812,1156.68
1.93156,1153.69
1.93501,1149.5
1.93845,1148.77
1.94189,1145.85
1.94533,1142.25
1.94877,1141.37
1.95221,1132.55
1.95565,1129.44
1.9591,1125.28
1.96254,1125.48
1.96598,1119.79
1.96942,1114.44
1.97286,1111.18
1.9763,1113.59
1.97974,1109.18
1.98319,1103.05
1.98663,1098.41
1.99007,1087.82
1.99351,1088.34
1.99695,1088.76
2.00039,1086.25
2.00383,1077.84
2.00728,1079.74
2.01072,1068.92
2.01416,1072.23
2.0176,1064.71
2.02104,1063.68
2.02448,1061.82
2.02793,1053.18
2.03137,1053.01
2.03481,1051.62
2.03825,1044.02
2.04169,1039.09
2.04513,1036.37
2.04857,1034.14
2.05202,1030.6
2.05546,1024.19
2.0589,1019.82
2.06234,1019.8
2.06578,1016.4
2.06922,1010.04
2.07266,1005.96
2.07611,1005.31
2.07955,1002.36
2.08299,998.138
2.08643,994.444
2.08987,989.735
2.09331,984.517
2.09675,985.579
2.1002,977.037
2.10364,972.857
2.10708,977.908
2.11052,969.556
2.11396,963.117
2.1174,957.693
2.12084,959.174
2.12429,954.419
2.12773,956.393
2.13117,949.168
2.13461,944.47
2.13805,942.918
2.14149,938.133
2.14494,934.872
2.14838,931.375
2.15182,928.326
2.15526,928.533
2.1587,922.846
2.16214,920.603
2.16558,918.751
2.16903,913.487
2.17247,911.978
2.17591,910.54
2.17935,905.156
2.18279,898.734
2.18623,899.055
2.18967,896.606
2.19312,893.877
2.19656,889.491
2.2,887.118
2.20344,884.982
2.20688,882.271
2.21032,877.201
2.21376,876.221
2.21721,873.692
2.22065,870.591
2.22409,868.701
2.22753,865.194
2.23097,862.601
2.23441,858.941
2.23785,856.07
2.2413,852.661
2.24474,850.713
2.24818,847.317
2.25162,847.442
2.25506,842.955
2.2585,843.374
2.26195,838.76
2.26539,835.619
2.26883,834.168
2.27227,830.042
2.27571,832.619
2.27915,824.533
2.28259,826.372
2.28604,820.451
2.28948,819.527
2.29292,818.129
2.29636,814.388
2.2998,812.643
2.30324,811.412
2.30668,808.071
2.31013,807.064
2.31357,802.745
2.31701,804.156
2.32045,801.07
2.32389,798.824
2.32733,797.035
2.33077,794.609
2.33422,791.074
2.33766,791.035
2.3411,787.4
2.34454,786.989
2.34798,784.883
2.35142,783.646
2.35486,781.63
2.35831,777.528
2.36175,775.754
2.36519,774.659
2.36863,774.576
2.37207,772.507
2.37551,769.785
2.37895,765.508
2.3824,767.401
2.38584,765.766
2.38928,761.882
2.39272,762.657
2.39616,760.1
2.3996,757.342
2.40305,758.415
2.40649,752.364
2.40993,752.165
2.41337,749.84
2.41681,743.881
2.42025,720.389
2.42369,786.281
2.42714,758.828
2.43058,751.607
2.43402,747.535
2.43746,744.474
2.4409,743.053
2.44434,741.369
2.44778,741.837
2.45123,737.528
2.45467,736.465
2.45811,735.619
2.46155,734.419
2.46499,728.351
2.46843,729.357
2.47187,731.005
2.47532,727.625
2.47876,724.916
2.4822,723.763
2.48564,722.876
2.48908,720.995
2.49252,720.795
2.49596,719.787
2.49941,718.787
2.50285,715.802
2.50629,717.401
2.50973,714.054
2.51317,713.564
2.51661,711.408
2.52006,709.393
2.5235,707.596
2.52694,709.745
2.53038,707.024
2.53382,707.122
2.53726,704.123
2.5407,702.397
2.54415,703.162
2.54759,704.829
2.55103,702.14
2.55447,698.982
2.55791,700.684
2.56135,700.185
2.56479,697.372
2.56824,693.997
2.57168,698.575
2.57512,694.872
2.57856,694.325
2.582,692.383
2.58544,696.915
2.58888,691.76
2.59233,692.993
2.59577,691.222
2.59921,688.819
2.60265,689.034
2.60609,688.522
2.60953,687.114
2.61297,687.129
2.61642,686.09
2.61986,683.951
2.6233,684.32
2.62674,685.223
2.63018,684.141
2.63362,681.939
2.63706,683.184
2.64051,682.52
2.64395,679.778
2.64739,681.022
2.65083,679.012
2.65427,677.611
2.65771,676.993
2.66116,677.555
2.6646,673.975
2.66804,675.954
2.67148,673.139
2.67492,675.199
2.67836,673.029
2.6818,673.298
2.68525,671.372
2.68869,671.71
2.69213,671.58
2.69557,670.952
2.69901,670.214
2.70245,668.199
2.70589,665.479
2.70934,672.74
2.71278,665.943
2.71622,667.575
2.71966,668.511
2.7231,665.582
2.72654,665.441
2.72998,665.782
2.73343,664.075
2.73687,665.399
2.74031,664.066
2.74375,661.563
2.74719,659.408
2.75063,660.963
2.75407,661.276
2.75752,657.643
2.76096,658.709
2.7644,657.264
2.76784,657.441
2.77128,657.558
2.77472,656.277
2.77817,653.985
2.78161,657.497
2.78505,656.129
2.78849,654.749
2.79193,652.126
2.79537,653.289
2.79881,652.588
2.80226,653.065
2.8057,652.427
2.80914,652.072
2.81258,648.447
2.81602,650.665
2.81946,647.753
2.8229,648.244
2.82635,645.399
2.82979,645.527
2.83323,646.668
2.83667,647.086
2.84011,645.915
2.84355,644.968
2.84699,642.794
2.85044,640.329
2.85388,642.08
2.85732,640.042
2.86076,642.297
2.8642,638.184
2.86764,636.593
2.87108,635.276
2.87453,633.615
2.87797,635.123
2.88141,632.872
2.88485,633.516
2.88829,632.367
2.89173,630.416
2.89518,630.807
2.89862,628.599
2.90206,626.622
2.9055,624.101
2.90894,625.289
2.91238,624.974
2.91582,624.57
2.91927,622.616
2.92271,620.814
2.92615,620.876
2.92959,618.379
2.93303,616.698
2.93647,613.964
2.93991,614.419
2.94336,612.52
2.9468,614.252
2.95024,607.538
2.95368,607.785
2.95712,609.058
2.96056,607.321
2.964,605.289
2.96745,604.615
2.97089,603.969
2.97433,599.458
2.97777,598.614
2.98121,598.464
2.98465,594.861
2.98809,595.267
2.99154,595.323
2.99498,590.107
2.99842,590.011
3.00186,588.88
3.0053,590.492
3.00874,586.559
3.01218,583.186
3.01563,583.336
3.01907,580.194
3.02251,579.706
3.02595,575.872
3.02939,576.463
3.03283,575.298
3.03628,573.408
3.03972,567.681
3.04316,568.474
3.0466,567.588
3.05004,565.137
3.05348,562.991
3.05692,560.732
3.06037,560.198
3.06381,560.288
3.06725,553.376
3.07069,553.312
3.07413,555.601
3.07757,548.441
3.08101,548.635
3.08446,547.998
3.0879,543.739
3.09134,544.512
3.09478,542.879
3.09822,538.029
3.10166,539.035
3.1051,536.215
3.10855,533.626
3.11199,531.57
3.11543,529.574
3.11887,526.671
3.12231,526.418
3.12575,525.825
3.12919,523.829
3.13264,518.116
3.13608,516.668
3.13952,514.149
3.14296,512.744
3.1464,513.016
3.14984,510.999
3.15329,508.781
3.15673,505.702
3.16017,503.894
3.16361,501.82
3.16705,500.995
3.17049,497.116
3.17393,495.437
3.17738,494.075
3.18082,493.171
3.18426,490.121
3.1877,489.159
3.19114,487.495
3.19458,484.542
3.19802,482.725
3.20147,482.831
3.20491,481.604
3.20835,475.999
3.21179,475.763
3.21523,474.606
3.21867,474.189
3.22211,469.513
3.22556,468.387
3.229,465.657
3.23244,466.144
3.23588,462.338
3.23932,461.272
3.24276,460.066
3.2462,457.001
3.24965,455.986
3.25309,456.233
3.25653,453.444
3.25997,450.688
3.26341,449.397
3.26685,444.957
3.27029,443.883
3.27374,443.719
3.27718,444.095
3.28062,442.46
3.28406,437.499
3.2875,437.975
3.29094,436.232
3.29439,433.864
3.29783,433.817
3.30127,432.007
3.30471,429.66
3.30815,429.753
3.31159,428.214
3.31503,423.809
3.31848,423.988
3.32192,422.099
3.32536,420.038
3.3288,418.527
3.33224,412.987
3.33568,410.31
3.33912,411.549
3.34257,407.755
3.34601,404.889
3.34945,401.791
3.35289,398.703
3.35633,413.836
3.35977,407.147
3.36321,405.371
3.36666,408.977
3.3701,405.358
3.37354,400.598
3.37698,401.399
3.38042,400.586
3.38386,399.786
3.3873,396.492
3.39075,393.718
3.39419,394.915
3.39763,395.088
3.40107,392.411
3.40451,392.94
3.40795,392.621
3.4114,389.443
3.41484,389.504
3.41828,387.408
3.42172,387.114
3.42516,388.049
3.4286,383.94
3.43204,381.457
3.43549,380.673
3.43893,379.973
3.44237,381.542
3.44581,380.161
3.44925,377.827
3.45269,379.991
3.45613,376.918
3.45958,375.356
3.46302,373.972
3.46646,374.3
3.4699,372.534
3.47334,371.665
3.47678,370.246
3.48022,371.665
3.48367,369.527
3.48711,367.69
3.49055,367.07
3.49399,366.382
3.49743,367.698
3.50087,364.446
3.50431,364.937
3.50776,363.944
3.5112,361.965
3.51464,362.461
3.51808,363.449
3.52152,361.288
3.52496,361.17
3.5284,360.681
3.53185,358.949
3.53529,359.981
3.53873,358.245
3.54217,354.836
3.54561,356.953
3.54905,355.849
3.5525,354.986
3.55594,353.716
3.55938,354
3.56282,355.954
3.56626,351.21
3.5697,351.565
3.57314,352.894
3.57659,350.063
3.58003,349.875
3.58347,350.189
3.58691,349.774
3.59035,349.198
3.59379,348.774
3.59723,347.338
3.60068,345.977
3.60412,346.1
3.60756,346.657
3.611,345.617
3.61444,345.068
3.61788,343.249
3.62132,344.121
3.62477,343.255
3.62821,343.215
3.63165,342.193
3.63509,341.733
3.63853,341.034
3.64197,341.046
3.64541,341.47
3.64886,342.105
3.6523,341.786
3.65574,339.88
3.65918,337.709
3.66262,339.22
3.66606,339.095
3.66951,337.57
3.67295,339.259
3.67639,335.733
3.67983,334.792
3.68327,337.158
3.68671,334.802
3.69015,336.28
3.6936,334.758
3.69704,336.62
3.70048,334.232
3.70392,334.204
3.70736,334.364
3.7108,333.241
3.71424,333.792
3.71769,332.132
3.72113,333.521
3.72457,332.476
3.72801,330.941
3.73145,332.028
3.73489,331.009
3.73833,329.823
3.74178,330.591
3.74522,329.444
3.74866,330.578
3.7521,330.243
3.75554,330.288
3.75898,328.563
3.76242,330.202
3.76587,327.532
3.76931,328.865
3.77275,327.633
3.77619,326.717
3.77963,327.221
3.78307,327.145
3.78652,325.509
3.78996,326.594
3.7934,326.81
3.79684,325.849
3.80028,323.324
3.80372,324.487
3.80716,324.842
3.81061,326.378
3.81405,324.441
3.81749,324.299
3.82093,325.121
3.82437,322.595
3.82781,322.159
3.83125,323.703
3.8347,323.275
3.83814,321.555
3.84158,321.875
3.84502,322.27
3.84846,322.868
3.8519,322.828
3.85534,321.636
3.85879,322.001
3.86223,321.68
3.86567,320.989
3.86911,320.371
3.87255,321.063
3.87599,319.162
3.87943,320.674
3.88288,320.348
3.88632,320.478
3.88976,318.288
3.8932,319.313
3.89664,320.537
3.90008,319.243
3.90352,319.011
3.90697,318.02
3.91041,317.326
3.91385,319.723
3.91729,318.115
3.92073,318.275
3.92417,317.766
3.92762,318.266
3.93106,317.593
3.9345,317.916
3.93794,318.267
3.94138,315.511
3.94482,316.386
3.94826,316.307
3.95171,315.676
3.95515,315.507
3.95859,314.75
3.96203,315.741
3.96547,317.254
3.96891,315.384
3.97235,315.681
3.9758,313.786
3.97924,313.789
3.98268,313.794
3.98612,315.729
3.98956,313.755
3.993,313.624
3.99644,313.944
3.99989,311.911
4.00333,312.571
4.00677,315.564
4.01021,314.896
4.01365,312.424
4.01709,312.528
4.02053,312.811
4.02398,313.199
4.02742,310.506
4.03086,313.477
4.0343,313.09
4.03774,312.005
4.04118,312.235
4.04463,310.856
4.04807,311.693
4.05151,312.131
4.05495,311.253
4.05839,311.794
4.06183,311.024
4.06527,311.098
4.06872,311.848
4.07216,310.242
4.0756,309.872
4.07904,310.294
4.08248,310.64
4.08592,310.439
4.08936,309.566
4.09281,309.145
4.09625,311.162
4.09969,308.776
4.10313,309.62
4.10657,309.99
4.11001,308.364
4.11345,308.182
4.1169,309.546
4.12034,309.938
4.12378,308.303
4.12722,308.412
4.13066,308.805
4.1341,309.438
4.13754,307.222
4.14099,307.97
4.14443,308.151
4.14787,309.285
4.15131,307.338
4.15475,308.963
4.15819,307.211
4.16163,305.916
4.16508,308.279
4.16852,306.241
4.17196,307.177
4.1754,306.386
4.17884,305.12
4.18228,306.296
4.18573,306.746
4.18917,304.029
4.19261,305.666
4.19605,307.411
4.19949,306.785
4.20293,306.713
4.20637,302.061
4.20982,303.803
4.21326,314.284
4.2167,305.056
4.22014,303.108
4.22358,301.732
4.22702,302.613
4.23046,304.073
4.23391,301.87
4.23735,301.215
4.24079,301.09
4.24423,301.91
4.24767,303.819
4.25111,302.54
4.25455,300.822
4.258,301.525
4.26144,301.66
4.26488,301.461
4.26832,302.099
4.27176,301.206
4.2752,303.155
4.27864,300.187
4.28209,301.499
4.28553,300.806
4.28897,300.493
4.29241,299.462
4.29585,301.601
4.29929,300.338
4.30274,301.001
4.30618,299.029
4.30962,300.444
4.31306,299.208
4.3165,299.548
4.31994,301.122
4.32338,299.418
4.32683,300.365
4.33027,299.811
4.33371,298.09
4.33715,297.691
4.34059,298.44
4.34403,299.748
4.34747,300.095
4.35092,297.731
4.35436,297.924
4.3578,296.686
4.36124,298.162
4.36468,297.227
4.36812,300.862
4.37156,296.425
4.37501,296.558
4.37845,297.346
4.38189,298.732
4.38533,297.382
4.38877,297.513
4.39221,295.455
4.39565,297.107
4.3991,296.892
4.40254,297.569
4.40598,296.09
4.40942,294.646
4.41286,296.386
4.4163,296.79
4.41975,297.492
4.42319,294.915
4.42663,295.299
4.43007,295.273
4.43351,295.573
4.43695,295.027
4.44039,294.285
4.44384,294.452
4.44728,294.242
4.45072,293.558
4.45416,294.209
4.4576,293.828
4.46104,294.33
4.46448,293.148
4.46793,292.65
4.47137,293.861
4.47481,290.98
4.47825,292.704
4.48169,292.452
4.48513,292.145
4.48857,292.634
4.49202,290.993
4.49546,292.989
4.4989,292.269
4.50234,292.017
4.50578,292.152
4.50922,293.171
4.51266,290.875
4.51611,291.684
4.51955,291.104
4.52299,290.984
4.52643,291.339
4.52987,290.337
4.53331,290.265
4.53675,290.64
4.5402,290.945
4.54364,288.984
4.54708,290.367
4.55052,289.342
4.55396,289.726
4.5574,289.639
4.56085,288.665
4.56429,288.774
4.56773,289.366
4.57117,289.132
4.57461,289.262
4.57805,288.424
4.58149,288.254
4.58494,288.255
4.58838,288.036
4.59182,286.748
4.59526,287.735
4.5987,287.635
4.60214,287.735
4.60558,287.724
4.60903,286.53
4.61247,286.066
4.61591,286.733
4.61935,286.556
4.62279,285.978
4.62623,284.59
4.62967,285.329
4.63312,284.435
4.63656,285.214
4.64,284.245
4.64344,283.973
4.64688,283.946
4.65032,283.06
4.65376,283.351
4.65721,283.449
4.66065,283.725
4.66409,283.212
4.66753,282.269
4.67097,283.601
4.67441,282.112
4.67786,282.275
4.6813,283.413
4.68474,282.116
4.68818,281.749
4.69162,281.435
4.69506,279.767
4.6985,281.761
4.70195,280.337
4.70539,280.975
4.70883,280.925
4.71227,280.001
4.71571,278.146
4.71915,279.13
4.72259,279.581
4.72604,278.763
4.72948,281.996
4.73292,278.591
4.73636,278.189
4.7398,278.879
4.74324,279.255
4.74668,278.717
4.75013,276.858
4.75357,277.692
4.75701,277.963
4.76045,277.876
4.76389,276.883
4.76733,276.613
4.77077,276.547
4.77422,275.953
4.77766,276.676
4.7811,276.708
4.78454,276.253
4.78798,275.378
4.79142,274.214
4.79486,274.397
4.79831,274.328
4.80175,274.89
4.80519,276.283
4.80863,274.846
4.81207,273.925
4.81551,273.683
4.81896,274.379
4.8224,274.087
4.82584,273.504
4.82928,272.532
4.83272,272.945
4.83616,273.003
4.8396,272.297
4.84305,273.855
4.84649,271.988
4.84993,272.291
4.85337,271.917
4.85681,273.671
4.86025,270.899
4.86369,271.942
4.86714,271.653
4.87058,270.685
4.87402,270.479
4.87746,269.413
4.8809,270.454
4.88434,270.763
4.88778,271.279
4.89123,268.24
4.89467,269.864
4.89811,267.837
4.90155,269.089
4.90499,267.569
4.90843,268.982
4.91187,268.45
4.91532,269.882
4.91876,266.339
4.9222,267.59
4.92564,268.759
4.92908,266.665
4.93252,268.188
4.93597,268.032
4.93941,267.795
4.94285,267.473
4.94629,266.239
4.94973,266.477
4.95317,265.579
4.95661,266.131
4.96006,264.663
4.9635,265.942
4.96694,266.763
4.97038,264.661
4.97382,263.738
4.97726,263.365
4.9807,264.017
4.98415,262.106
4.98759,264.788
4.99103,264.255
4.99447,263.194
4.99791,263.755
5.00135,261.235
5.00479,259.739
5.00824,259.408
5.01168,255.965
5.01512,254.221
5.01856,252.524
5.022,246.656
5.02372,235.146