File: APS/data_viewing/WAXS-Precursor_background_noTEOS-1.csv
# #q, WAXS_int
1.46697,972.017
1.47041,988.477
1.47385,996.153
1.47729,1000.14
1.48073,1006.01
1.48417,1013.34
1.48761,1015.36
1.49106,1018.66
1.4945,1017.25
1.49794,1023.06
1.50138,1022.94
1.50482,1028.08
1.50826,1030.2
1.51171,1031.89
1.51515,1033.83
1.51859,1037.66
1.52203,1038.55
1.52547,1042.93
1.52891,1046.53
1.53235,1047.03
1.5358,1047.03
1.53924,1052.17
1.54268,1052.22
1.54612,1062.5
1.54956,1058.18
1.553,1062.49
1.55644,1065.75
1.55989,1063.61
1.56333,1068.47
1.56677,1068.19
1.57021,1071.66
1.57365,1072.39
1.57709,1077.85
1.58053,1079.23
1.58398,1085.12
1.58742,1080.12
1.59086,1083.67
1.5943,1084.25
1.59774,1087.35
1.60118,1090.31
1.60462,1097.65
1.60807,1098.24
1.61151,1094.33
1.61495,1096.69
1.61839,1102.48
1.62183,1101.82
1.62527,1106.82
1.62872,1105.81
1.63216,1106.85
1.6356,1113.09
1.63904,1114.87
1.64248,1115.12
1.64592,1114.43
1.64936,1117.63
1.65281,1119.87
1.65625,1118.47
1.65969,1124.71
1.66313,1123.95
1.66657,1130.61
1.67001,1124.52
1.67345,1127.42
1.6769,1133.38
1.68034,1131.31
1.68378,1136.82
1.68722,1135.41
1.69066,1137.32
1.6941,1139.33
1.69754,1137.07
1.70099,1144.4
1.70443,1143.08
1.70787,1146.88
1.71131,1151.46
1.71475,1147.91
1.71819,1148.96
1.72163,1150.27
1.72508,1156.02
1.72852,1153.05
1.73196,1152.22
1.7354,1158.76
1.73884,1156.9
1.74228,1156.79
1.74572,1157.98
1.74917,1160.68
1.75261,1163.27
1.75605,1159.92
1.75949,1164.39
1.76293,1160.83
1.76637,1161.28
1.76982,1162.92
1.77326,1165.47
1.7767,1165.66
1.78014,1165.23
1.78358,1162.07
1.78702,1171.38
1.79046,1175.22
1.79391,1165.7
1.79735,1166.33
1.80079,1165.43
1.80423,1166.73
1.80767,1164.64
1.81111,1168.76
1.81455,1168.13
1.818,1168.44
1.82144,1164.26
1.82488,1165.88
1.82832,1165.92
1.83176,1164.12
1.8352,1165.33
1.83864,1164.58
1.84209,1160.49
1.84553,1161.1
1.84897,1163.25
1.85241,1158.79
1.85585,1158.3
1.85929,1156.85
1.86273,1153.71
1.86618,1157.09
1.86962,1153.85
1.87306,1154.68
1.8765,1153.7
1.87994,1151.65
1.88338,1148.86
1.88683,1149.85
1.89027,1146.12
1.89371,1142.4
1.89715,1138.79
1.90059,1140.83
1.90403,1135.35
1.90747,1137.13
1.91092,1135.03
1.91436,1131.4
1.9178,1128.75
1.92124,1127.13
1.92468,1126.4
1.92812,1123.62
1.93156,1124.58
1.93501,1118.12
1.93845,1115.1
1.94189,1112.13
1.94533,1110.93
1.94877,1110.53
1.95221,1103.48
1.95565,1102.06
1.9591,1098.57
1.96254,1097.48
1.96598,1094.54
1.96942,1091.55
1.97286,1084.41
1.9763,1087.82
1.97974,1083.51
1.98319,1077.75
1.98663,1077.61
1.99007,1069.34
1.99351,1067.18
1.99695,1066.78
2.00039,1064.72
2.00383,1060.31
2.00728,1060.33
2.01072,1050.84
2.01416,1054.31
2.0176,1046.88
2.02104,1045.07
2.02448,1043.47
2.02793,1037.13
2.03137,1035.33
2.03481,1035.93
2.03825,1026.49
2.04169,1023.31
2.04513,1022.03
2.04857,1020.18
2.05202,1016.73
2.05546,1012.72
2.0589,1006.5
2.06234,1005.97
2.06578,1004.9
2.06922,994.109
2.07266,990.81
2.07611,994.877
2.07955,990.791
2.08299,982.713
2.08643,983.656
2.08987,978.379
2.09331,974.929
2.09675,976.971
2.1002,966.253
2.10364,961.882
2.10708,967.024
2.11052,960.04
2.11396,954.58
2.1174,948.457
2.12084,947.836
2.12429,945.441
2.12773,945.047
2.13117,941.658
2.13461,936.569
2.13805,933.003
2.14149,928.881
2.14494,924.819
2.14838,925.195
2.15182,918.965
2.15526,919.82
2.1587,914.254
2.16214,910.682
2.16558,909.818
2.16903,906.906
2.17247,903.164
2.17591,899.714
2.17935,896.97
2.18279,889.084
2.18623,889.848
2.18967,888.009
2.19312,884.92
2.19656,881.271
2.2,877.989
2.20344,876.216
2.20688,874.449
2.21032,873.081
2.21376,867.011
2.21721,864.076
2.22065,861.89
2.22409,858.288
2.22753,855.622
2.23097,853.289
2.23441,850.19
2.23785,848.647
2.2413,845.94
2.24474,846.486
2.24818,841.119
2.25162,839.401
2.25506,833.852
2.2585,836.351
2.26195,830.174
2.26539,829.998
2.26883,823.969
2.27227,821.024
2.27571,823.053
2.27915,819.464
2.28259,815.85
2.28604,814.564
2.28948,812.235
2.29292,811.613
2.29636,804.569
2.2998,804.238
2.30324,802.413
2.30668,800.751
2.31013,797.111
2.31357,795.137
2.31701,795.365
2.32045,791.975
2.32389,791.91
2.32733,788.309
2.33077,784.962
2.33422,784.752
2.33766,781.392
2.3411,779.945
2.34454,778.57
2.34798,773.461
2.35142,776.251
2.35486,773.679
2.35831,767.329
2.36175,763.345
2.36519,766.597
2.36863,763.032
2.37207,763.868
2.37551,760.09
2.37895,758.688
2.3824,757.741
2.38584,756.592
2.38928,753.381
2.39272,756.072
2.39616,751.26
2.3996,746.831
2.40305,748.938
2.40649,743.428
2.40993,742.429
2.41337,743.514
2.41681,734.872
2.42025,711.141
2.42369,776.873
2.42714,750.285
2.43058,743.475
2.43402,738.527
2.43746,735.798
2.4409,734.842
2.44434,729.002
2.44778,729.67
2.45123,728.581
2.45467,725.462
2.45811,726.059
2.46155,724.248
2.46499,718.061
2.46843,717.215
2.47187,722.319
2.47532,719.188
2.47876,715.191
2.4822,712.887
2.48564,711.026
2.48908,709.843
2.49252,709.499
2.49596,711.337
2.49941,708.884
2.50285,708.523
2.50629,707.494
2.50973,705.243
2.51317,704.48
2.51661,700.318
2.52006,698.015
2.5235,696.844
2.52694,700.293
2.53038,700.472
2.53382,696.967
2.53726,695.449
2.5407,693.785
2.54415,693.575
2.54759,694.042
2.55103,692.213
2.55447,690.012
2.55791,690.171
2.56135,688.333
2.56479,688.178
2.56824,685.781
2.57168,688.402
2.57512,684.703
2.57856,683.7
2.582,681.724
2.58544,686.315
2.58888,682.036
2.59233,682.482
2.59577,684.587
2.59921,676.914
2.60265,680.141
2.60609,678.067
2.60953,678.049
2.61297,675.986
2.61642,676.293
2.61986,675.455
2.6233,674.043
2.62674,675.268
2.63018,673.952
2.63362,673.576
2.63706,672.372
2.64051,672.146
2.64395,673.681
2.64739,668.986
2.65083,667.406
2.65427,669.482
2.65771,669.349
2.66116,667.146
2.6646,666.13
2.66804,666.429
2.67148,666.08
2.67492,664.166
2.67836,664.644
2.6818,663.995
2.68525,660.123
2.68869,663.056
2.69213,663.343
2.69557,662.575
2.69901,663.282
2.70245,658.025
2.70589,657.788
2.70934,665.157
2.71278,658.382
2.71622,658.388
2.71966,657.166
2.7231,657.444
2.72654,656.039
2.72998,655.711
2.73343,654.699
2.73687,654.547
2.74031,656.768
2.74375,656.212
2.74719,652.612
2.75063,652.354
2.75407,651.815
2.75752,652.991
2.76096,651.811
2.7644,650.142
2.76784,651.046
2.77128,651.74
2.77472,649.411
2.77817,648.147
2.78161,648.217
2.78505,649.929
2.78849,647.105
2.79193,645.61
2.79537,648.978
2.79881,644.122
2.80226,643.933
2.8057,643.212
2.80914,644.292
2.81258,642.376
2.81602,643.399
2.81946,640.542
2.8229,642.167
2.82635,639.073
2.82979,640.844
2.83323,639.639
2.83667,639.429
2.84011,638.426
2.84355,638.341
2.84699,635.824
2.85044,634.793
2.85388,635.338
2.85732,633.946
2.86076,634.755
2.8642,633.247
2.86764,631.244
2.87108,631.085
2.87453,628.036
2.87797,628.857
2.88141,626.394
2.88485,627.579
2.88829,629.199
2.89173,626.323
2.89518,624.081
2.89862,622
2.90206,620.27
2.9055,620.116
2.90894,619.824
2.91238,619.879
2.91582,617.508
2.91927,618.219
2.92271,613.277
2.92615,613.827
2.92959,614.629
2.93303,611.436
2.93647,608.887
2.93991,608.476
2.94336,608.619
2.9468,610.212
2.95024,607.308
2.95368,602.555
2.95712,604.639
2.96056,600.851
2.964,600.31
2.96745,598.946
2.97089,598.393
2.97433,596.52
2.97777,594.291
2.98121,592.651
2.98465,592.988
2.98809,591.056
2.99154,589.031
2.99498,586.368
2.99842,585.812
3.00186,583.984
3.0053,582.817
3.00874,581.332
3.01218,579.325
3.01563,579.702
3.01907,574.646
3.02251,573.708
3.02595,570.301
3.02939,573.769
3.03283,568.413
3.03628,568.274
3.03972,565.462
3.04316,563.834
3.0466,563.07
3.05004,558.334
3.05348,557.976
3.05692,556.189
3.06037,556.152
3.06381,552.888
3.06725,550.609
3.07069,549.138
3.07413,547.77
3.07757,544.15
3.08101,543.078
3.08446,540.074
3.0879,538.511
3.09134,537.681
3.09478,535.67
3.09822,530.494
3.10166,532.635
3.1051,529.146
3.10855,526.435
3.11199,526.347
3.11543,523.698
3.11887,519.757
3.12231,519.668
3.12575,518.927
3.12919,514.43
3.13264,511.322
3.13608,510.341
3.13952,507.559
3.14296,506.41
3.1464,503.707
3.14984,504.578
3.15329,499.521
3.15673,498.014
3.16017,497.181
3.16361,494.214
3.16705,493.428
3.17049,490.763
3.17393,488.944
3.17738,488.326
3.18082,483.934
3.18426,482.731
3.1877,479.557
3.19114,479.058
3.19458,475.692
3.19802,474.38
3.20147,472.219
3.20491,472.234
3.20835,467.256
3.21179,467.512
3.21523,466.121
3.21867,464.942
3.22211,459.77
3.22556,461.079
3.229,456.586
3.23244,454.549
3.23588,453.438
3.23932,451.454
3.24276,449.96
3.2462,448.131
3.24965,445.764
3.25309,445.492
3.25653,444.827
3.25997,441.189
3.26341,441.448
3.26685,434.652
3.27029,435.243
3.27374,433.69
3.27718,434.937
3.28062,433.123
3.28406,428.348
3.2875,427.017
3.29094,426.27
3.29439,424.182
3.29783,422.176
3.30127,421.335
3.30471,420.255
3.30815,417.401
3.31159,415.948
3.31503,413.292
3.31848,412.834
3.32192,410.968
3.32536,408.036
3.3288,406.239
3.33224,400.8
3.33568,400.041
3.33912,397.851
3.34257,394.987
3.34601,393.312
3.34945,387.069
3.35289,387.333
3.35633,399.926
3.35977,395.214
3.36321,393.068
3.36666,395.948
3.3701,393.588
3.37354,388.066
3.37698,389.629
3.38042,386.181
3.38386,387.439
3.3873,383.73
3.39075,381.849
3.39419,381.403
3.39763,381.751
3.40107,381.719
3.40451,379.645
3.40795,378.411
3.4114,377.617
3.41484,375.789
3.41828,373.768
3.42172,373.973
3.42516,375.825
3.4286,372.198
3.43204,368.678
3.43549,368.478
3.43893,367.364
3.44237,367.896
3.44581,367.619
3.44925,364.634
3.45269,364.807
3.45613,361.936
3.45958,361.698
3.46302,361.682
3.46646,361.222
3.4699,358.109
3.47334,358.879
3.47678,357.059
3.48022,357.472
3.48367,355.901
3.48711,354.83
3.49055,354.057
3.49399,351.984
3.49743,354.719
3.50087,350.435
3.50431,351.428
3.50776,349.109
3.5112,348.823
3.51464,349.439
3.51808,348
3.52152,345.697
3.52496,347.705
3.5284,345.3
3.53185,345.625
3.53529,344.987
3.53873,345.049
3.54217,343.243
3.54561,343.255
3.54905,341.8
3.5525,342.524
3.55594,340.949
3.55938,339.327
3.56282,341.351
3.56626,337.413
3.5697,338.155
3.57314,338.297
3.57659,338.366
3.58003,336.874
3.58347,335.976
3.58691,334.951
3.59035,336.255
3.59379,333.904
3.59723,333.567
3.60068,331.9
3.60412,332.017
3.60756,332.342
3.611,330.75
3.61444,330.229
3.61788,329.645
3.62132,330.375
3.62477,330.598
3.62821,328.548
3.63165,329.487
3.63509,325.595
3.63853,327.046
3.64197,326.114
3.64541,328.356
3.64886,327.277
3.6523,327.023
3.65574,326.112
3.65918,324.983
3.66262,323.788
3.66606,324.798
3.66951,323.024
3.67295,325.02
3.67639,321.245
3.67983,322.663
3.68327,323.203
3.68671,322.554
3.69015,320.268
3.6936,321.561
3.69704,321.792
3.70048,320.173
3.70392,319.36
3.70736,319.297
3.7108,320.655
3.71424,318.921
3.71769,317.795
3.72113,318.7
3.72457,318.995
3.72801,318.457
3.73145,317.026
3.73489,318.655
3.73833,316.501
3.74178,316.338
3.74522,317.218
3.74866,315.833
3.7521,316.098
3.75554,316.368
3.75898,315.088
3.76242,314.852
3.76587,314.205
3.76931,315.252
3.77275,315.951
3.77619,313.389
3.77963,313.52
3.78307,313.699
3.78652,312.832
3.78996,312.296
3.7934,313.515
3.79684,312.457
3.80028,311.939
3.80372,311.459
3.80716,310.637
3.81061,311.255
3.81405,310.51
3.81749,310.232
3.82093,310.142
3.82437,309.853
3.82781,309.461
3.83125,310.314
3.8347,310.412
3.83814,308.886
3.84158,310.352
3.84502,309.587
3.84846,309.501
3.8519,309.214
3.85534,309.507
3.85879,307.495
3.86223,307.677
3.86567,308.003
3.86911,308.325
3.87255,307.981
3.87599,308.534
3.87943,307.42
3.88288,307.575
3.88632,307.761
3.88976,305.628
3.8932,306.384
3.89664,308.31
3.90008,305.745
3.90352,306.413
3.90697,304.836
3.91041,305.266
3.91385,305.701
3.91729,305.78
3.92073,305.385
3.92417,304.229
3.92762,304.283
3.93106,303.932
3.9345,304.781
3.93794,304.277
3.94138,303.388
3.94482,304.143
3.94826,303.244
3.95171,303.233
3.95515,303.011
3.95859,303.786
3.96203,302.451
3.96547,303.993
3.96891,302.874
3.97235,303.705
3.9758,302.338
3.97924,301.166
3.98268,302.941
3.98612,303.089
3.98956,301.273
3.993,301.606
3.99644,302.453
3.99989,301.445
4.00333,301.016
4.00677,301.432
4.01021,301.409
4.01365,299.226
4.01709,301.312
4.02053,301.542
4.02398,302.033
4.02742,298.278
4.03086,300.163
4.0343,301.172
4.03774,300.861
4.04118,299.55
4.04463,300.203
4.04807,300.263
4.05151,300.358
4.05495,299.776
4.05839,298.622
4.06183,299.141
4.06527,298.537
4.06872,300.413
4.07216,298.72
4.0756,298.43
4.07904,297.501
4.08248,299.442
4.08592,299.941
4.08936,298.036
4.09281,297.862
4.09625,300.312
4.09969,298.249
4.10313,297.465
4.10657,297.875
4.11001,296.844
4.11345,297.514
4.1169,297.191
4.12034,298.14
4.12378,297.882
4.12722,298.107
4.13066,296.82
4.1341,298.067
4.13754,297.893
4.14099,297.159
4.14443,297.455
4.14787,296.472
4.15131,296.97
4.15475,296.169
4.15819,297.727
4.16163,294.804
4.16508,297.189
4.16852,295.706
4.17196,296.074
4.1754,297.177
4.17884,296.373
4.18228,296.159
4.18573,295.7
4.18917,294.489
4.19261,295.814
4.19605,296.449
4.19949,296.01
4.20293,296.532
4.20637,291.797
4.20982,293.734
4.21326,303.519
4.2167,293.516
4.22014,293.661
4.22358,293.522
4.22702,292.905
4.23046,292.33
4.23391,291.241
4.23735,291.099
4.24079,291.323
4.24423,291.624
4.24767,293.602
4.25111,292.981
4.25455,291.399
4.258,291.921
4.26144,291.155
4.26488,289.395
4.26832,292.001
4.27176,290.851
4.2752,292.396
4.27864,289.681
4.28209,292.173
4.28553,289.837
4.28897,288.971
4.29241,291.053
4.29585,292.403
4.29929,289.087
4.30274,291.121
4.30618,291.046
4.30962,290.581
4.31306,288.776
4.3165,290.004
4.31994,289.026
4.32338,288.284
4.32683,289.167
4.33027,290.646
4.33371,287.383
4.33715,288.97
4.34059,288.114
4.34403,289.824
4.34747,288.618
4.35092,287.753
4.35436,287.383
4.3578,287.601
4.36124,287.341
4.36468,287.823
4.36812,290.244
4.37156,286.329
4.37501,288.504
4.37845,286.97
4.38189,288.128
4.38533,288.2
4.38877,287.412
4.39221,285.552
4.39565,286.652
4.3991,286.803
4.40254,286.348
4.40598,285.869
4.40942,286.708
4.41286,286.463
4.4163,286.944
4.41975,286.455
4.42319,284.732
4.42663,286.07
4.43007,284.938
4.43351,286.785
4.43695,286.101
4.44039,285.515
4.44384,284.892
4.44728,283.589
4.45072,284.502
4.45416,284.726
4.4576,283.702
4.46104,285.707
4.46448,284.238
4.46793,283.253
4.47137,284.796
4.47481,282.77
4.47825,283.681
4.48169,283.627
4.48513,283.721
4.48857,283.347
4.49202,283.359
4.49546,282.378
4.4989,282.064
4.50234,283.422
4.50578,281.808
4.50922,283.953
4.51266,282.149
4.51611,283.902
4.51955,281.16
4.52299,281.478
4.52643,282.489
4.52987,280.748
4.53331,280.731
4.53675,280.146
4.5402,281.352
4.54364,280.746
4.54708,281.179
4.55052,279.07
4.55396,280.652
4.5574,281.121
4.56085,279.952
4.56429,278.975
4.56773,280.144
4.57117,279.189
4.57461,278.583
4.57805,279.447
4.58149,278.15
4.58494,279.704
4.58838,277.331
4.59182,278.618
4.59526,279.545
4.5987,277.55
4.60214,278.192
4.60558,278.862
4.60903,276.775
4.61247,276.594
4.61591,278.504
4.61935,278.019
4.62279,277.288
4.62623,277.111
4.62967,275.932
4.63312,274.478
4.63656,276.492
4.64,274.087
4.64344,274.72
4.64688,275.256
4.65032,275.216
4.65376,274.26
4.65721,274.823
4.66065,275.822
4.66409,272.84
4.66753,275.422
4.67097,274.557
4.67441,273.842
4.67786,272.731
4.6813,272.956
4.68474,272.925
4.68818,273.634
4.69162,272.01
4.69506,272.311
4.6985,272.348
4.70195,271.67
4.70539,272.176
4.70883,272.527
4.71227,271.357
4.71571,271.799
4.71915,270.361
4.72259,270.634
4.72604,271.232
4.72948,270.671
4.73292,271.844
4.73636,270.496
4.7398,269.38
4.74324,269.877
4.74668,270.107
4.75013,268.316
4.75357,268.768
4.75701,268.127
4.76045,268.965
4.76389,268.378
4.76733,267.225
4.77077,267.931
4.77422,268.058
4.77766,268.703
4.7811,267.58
4.78454,266.196
4.78798,266.434
4.79142,266.505
4.79486,266.939
4.79831,265.176
4.80175,266.514
4.80519,265.676
4.80863,265.094
4.81207,265.178
4.81551,265.404
4.81896,264.845
4.8224,264.443
4.82584,264.323
4.82928,264.194
4.83272,263.8
4.83616,263.459
4.8396,263.589
4.84305,264.576
4.84649,263.089
4.84993,261.945
4.85337,263.236
4.85681,262.064
4.86025,262.495
4.86369,262.428
4.86714,261.581
4.87058,260.987
4.87402,261.004
4.87746,259.66
4.8809,262.096
4.88434,260.987
4.88778,262.115
4.89123,260.271
4.89467,260.566
4.89811,260.523
4.90155,260.489
4.90499,261.066
4.90843,259.839
4.91187,259.426
4.91532,259.059
4.91876,259.267
4.9222,260.086
4.92564,259.164
4.92908,257.933
4.93252,257.921
4.93597,256.775
4.93941,258.006
4.94285,258.883
4.94629,257.219
4.94973,257.458
4.95317,257.944
4.95661,257.047
4.96006,257.854
4.9635,257.109
4.96694,255.618
4.97038,256.291
4.97382,256.89
4.97726,255.085
4.9807,256.688
4.98415,255.602
4.98759,255.267
4.99103,253.052
4.99447,253.061
4.99791,254.709
5.00135,251.402
5.00479,250.077
5.00824,249.648
5.01168,249.775
5.01512,245.851
5.01856,239.794
5.022,241.343
5.02372,230.36