File: APS/data_viewing/WAXS-Control1-2.csv
# #q, WAXS_int
1.46697,1024.73
1.47041,1045.77
1.47385,1055.5
1.47729,1056.21
1.48073,1065.43
1.48417,1069.9
1.48761,1078.6
1.49106,1077.94
1.4945,1076.25
1.49794,1085.67
1.50138,1085.53
1.50482,1091.09
1.50826,1094.84
1.51171,1095.05
1.51515,1097.37
1.51859,1100.96
1.52203,1103.59
1.52547,1106.48
1.52891,1109.49
1.53235,1108.12
1.5358,1110.44
1.53924,1113.94
1.54268,1115.65
1.54612,1129.02
1.54956,1121.81
1.553,1124.23
1.55644,1131.29
1.55989,1128.71
1.56333,1132.94
1.56677,1132.02
1.57021,1132.66
1.57365,1138.71
1.57709,1141.83
1.58053,1147.18
1.58398,1147.57
1.58742,1144.23
1.59086,1149.37
1.5943,1149.83
1.59774,1152.92
1.60118,1153.31
1.60462,1159.79
1.60807,1160.09
1.61151,1156.72
1.61495,1162.38
1.61839,1166.24
1.62183,1163.51
1.62527,1168.81
1.62872,1164.55
1.63216,1170.69
1.6356,1173.09
1.63904,1176.64
1.64248,1177.07
1.64592,1174.07
1.64936,1180.15
1.65281,1177.96
1.65625,1175.65
1.65969,1180.49
1.66313,1182.48
1.66657,1185.38
1.67001,1183.66
1.67345,1183.68
1.6769,1191.05
1.68034,1185.67
1.68378,1191.34
1.68722,1190.2
1.69066,1191.54
1.6941,1192.61
1.69754,1189.99
1.70099,1198.06
1.70443,1197.18
1.70787,1194.76
1.71131,1200.59
1.71475,1197.75
1.71819,1194.68
1.72163,1198.17
1.72508,1201.59
1.72852,1198.68
1.73196,1199.47
1.7354,1202.02
1.73884,1201.48
1.74228,1199.84
1.74572,1203.54
1.74917,1203.25
1.75261,1204.54
1.75605,1198.69
1.75949,1200.24
1.76293,1201.43
1.76637,1198.77
1.76982,1202.89
1.77326,1199.46
1.7767,1198.76
1.78014,1196.92
1.78358,1195.79
1.78702,1200.5
1.79046,1204.22
1.79391,1194.29
1.79735,1195.35
1.80079,1195.86
1.80423,1192.98
1.80767,1192.41
1.81111,1194.52
1.81455,1191.09
1.818,1187.26
1.82144,1188.74
1.82488,1186.75
1.82832,1186.39
1.83176,1186.36
1.8352,1183.37
1.83864,1181.85
1.84209,1181.92
1.84553,1174.83
1.84897,1178.99
1.85241,1172.89
1.85585,1171.88
1.85929,1169.25
1.86273,1170.55
1.86618,1168.84
1.86962,1163.15
1.87306,1162.97
1.8765,1163.52
1.87994,1158.36
1.88338,1153.17
1.88683,1155.64
1.89027,1149.62
1.89371,1146.93
1.89715,1144.04
1.90059,1144.32
1.90403,1140.13
1.90747,1139.98
1.91092,1133.46
1.91436,1129.47
1.9178,1129.36
1.92124,1126.55
1.92468,1123.38
1.92812,1119.93
1.93156,1117.78
1.93501,1110.83
1.93845,1112.78
1.94189,1108.55
1.94533,1106.03
1.94877,1104.35
1.95221,1094.84
1.95565,1093.1
1.9591,1087.55
1.96254,1087.73
1.96598,1084.17
1.96942,1079.29
1.97286,1075.32
1.9763,1077.19
1.97974,1072.05
1.98319,1067.22
1.98663,1065.43
1.99007,1053.75
1.99351,1052.74
1.99695,1055.02
2.00039,1051.47
2.00383,1045.02
2.00728,1044.7
2.01072,1035.48
2.01416,1037.71
2.0176,1030.23
2.02104,1028.42
2.02448,1027.63
2.02793,1019.69
2.03137,1020.86
2.03481,1016.76
2.03825,1012
2.04169,1005.73
2.04513,1005.46
2.04857,1001.99
2.05202,998.299
2.05546,993.913
2.0589,989.232
2.06234,988.302
2.06578,985.135
2.06922,978.516
2.07266,974.663
2.07611,977.592
2.07955,970.674
2.08299,966.314
2.08643,964.925
2.08987,958.419
2.09331,953.633
2.09675,955.372
2.1002,948.575
2.10364,941.07
2.10708,945.138
2.11052,938.352
2.11396,933.594
2.1174,929.436
2.12084,930.672
2.12429,925.936
2.12773,925.167
2.13117,921.333
2.13461,916.479
2.13805,913.814
2.14149,905.997
2.14494,904.405
2.14838,906.188
2.15182,900.409
2.15526,895.515
2.1587,894.725
2.16214,893.039
2.16558,891.368
2.16903,885.368
2.17247,883.053
2.17591,882.675
2.17935,877.216
2.18279,872.977
2.18623,870.13
2.18967,868.679
2.19312,865.906
2.19656,860.758
2.2,859.15
2.20344,858.188
2.20688,857.748
2.21032,851.013
2.21376,846.832
2.21721,845.637
2.22065,843.81
2.22409,842.487
2.22753,838.522
2.23097,835.707
2.23441,830.342
2.23785,829.51
2.2413,826.896
2.24474,826.347
2.24818,822.349
2.25162,821.152
2.25506,816.757
2.2585,818.033
2.26195,812.747
2.26539,812.454
2.26883,807.529
2.27227,806.646
2.27571,805.483
2.27915,802.291
2.28259,799.306
2.28604,796.974
2.28948,794.729
2.29292,793.727
2.29636,790.151
2.2998,787.186
2.30324,787.144
2.30668,785.044
2.31013,779.36
2.31357,779.157
2.31701,778.853
2.32045,776.233
2.32389,774.929
2.32733,770.394
2.33077,768.409
2.33422,768.108
2.33766,765.422
2.3411,762.102
2.34454,762.133
2.34798,757.216
2.35142,756.908
2.35486,756.416
2.35831,756.734
2.36175,753.855
2.36519,751.357
2.36863,748.868
2.37207,746.787
2.37551,746.161
2.37895,742.968
2.3824,745.422
2.38584,741.673
2.38928,735.42
2.39272,737.824
2.39616,734.718
2.3996,733.101
2.40305,733.708
2.40649,730.638
2.40993,728.893
2.41337,726.694
2.41681,720.847
2.42025,698.049
2.42369,763.52
2.42714,737.525
2.43058,726.279
2.43402,725.907
2.43746,721.842
2.4409,721.758
2.44434,718.878
2.44778,715.741
2.45123,715.259
2.45467,712.527
2.45811,714.845
2.46155,710.648
2.46499,705.14
2.46843,706.81
2.47187,708.788
2.47532,703.932
2.47876,701.55
2.4822,702.529
2.48564,700.156
2.48908,698.864
2.49252,698.862
2.49596,697.46
2.49941,695.826
2.50285,694.145
2.50629,693.826
2.50973,692.374
2.51317,691.45
2.51661,689.179
2.52006,688.814
2.5235,685.949
2.52694,687.208
2.53038,685.17
2.53382,684.238
2.53726,682.727
2.5407,682.257
2.54415,680.704
2.54759,681.914
2.55103,681.148
2.55447,679.335
2.55791,675.368
2.56135,678.594
2.56479,678.54
2.56824,675.498
2.57168,677.043
2.57512,674.112
2.57856,671.545
2.582,670.264
2.58544,675.066
2.58888,670.063
2.59233,671.437
2.59577,671.849
2.59921,666.259
2.60265,669.042
2.60609,666.43
2.60953,666.509
2.61297,666.036
2.61642,665.714
2.61986,662.737
2.6233,662.154
2.62674,664.077
2.63018,663.152
2.63362,660.772
2.63706,660.733
2.64051,661.144
2.64395,658.128
2.64739,659.752
2.65083,658.445
2.65427,659.106
2.65771,657.202
2.66116,657.501
2.6646,654.078
2.66804,654.379
2.67148,652.209
2.67492,653.789
2.67836,654.005
2.6818,651.999
2.68525,649.64
2.68869,652.275
2.69213,651.515
2.69557,650.923
2.69901,650.718
2.70245,648.792
2.70589,646.838
2.70934,650.766
2.71278,646.362
2.71622,646.715
2.71966,646.619
2.7231,644.61
2.72654,646.288
2.72998,642.44
2.73343,643.927
2.73687,642.936
2.74031,645.436
2.74375,642.738
2.74719,641.647
2.75063,640.725
2.75407,642.265
2.75752,637.868
2.76096,639.346
2.7644,637.367
2.76784,638.05
2.77128,639.938
2.77472,636.103
2.77817,634.898
2.78161,636.458
2.78505,639.602
2.78849,634.706
2.79193,632.847
2.79537,634.646
2.79881,635.465
2.80226,631.445
2.8057,632.12
2.80914,631.898
2.81258,629.342
2.81602,630.588
2.81946,630.052
2.8229,629.76
2.82635,627.096
2.82979,626.537
2.83323,627.354
2.83667,625.768
2.84011,623.669
2.84355,624.964
2.84699,623.965
2.85044,625.471
2.85388,622.861
2.85732,622.372
2.86076,620.867
2.8642,619.559
2.86764,619.107
2.87108,617.843
2.87453,615.283
2.87797,616.198
2.88141,614.882
2.88485,612.737
2.88829,613.596
2.89173,612.855
2.89518,611.288
2.89862,609.941
2.90206,607.148
2.9055,607.42
2.90894,607.698
2.91238,605.776
2.91582,604.943
2.91927,604.597
2.92271,603.173
2.92615,600.481
2.92959,600.081
2.93303,597.156
2.93647,595.665
2.93991,597.385
2.94336,596.226
2.9468,596.344
2.95024,593.385
2.95368,591.178
2.95712,590.942
2.96056,588.129
2.964,588.908
2.96745,587.335
2.97089,584.829
2.97433,582.704
2.97777,583.024
2.98121,580.194
2.98465,579.366
2.98809,577.004
2.99154,579.614
2.99498,573.746
2.99842,572.992
3.00186,569.846
3.0053,571.18
3.00874,572.369
3.01218,565.113
3.01563,567.225
3.01907,563.689
3.02251,562.922
3.02595,560.104
3.02939,561.674
3.03283,555.385
3.03628,556.758
3.03972,551.317
3.04316,554.5
3.0466,550.629
3.05004,547.737
3.05348,547.96
3.05692,545.173
3.06037,543.386
3.06381,542.965
3.06725,540.187
3.07069,535.777
3.07413,537.206
3.07757,533.27
3.08101,532.469
3.08446,529.383
3.0879,526.631
3.09134,527.474
3.09478,526.539
3.09822,521.52
3.10166,522.283
3.1051,519.333
3.10855,516.193
3.11199,516.354
3.11543,513.266
3.11887,510.181
3.12231,512.233
3.12575,510.053
3.12919,508.184
3.13264,503.021
3.13608,502.637
3.13952,500.431
3.14296,498.346
3.1464,495.618
3.14984,495.069
3.15329,494.183
3.15673,489.97
3.16017,487.211
3.16361,486.499
3.16705,484.56
3.17049,483.327
3.17393,481.086
3.17738,479.853
3.18082,477.467
3.18426,475.134
3.1877,473.9
3.19114,472.899
3.19458,470.198
3.19802,468.793
3.20147,468.087
3.20491,465.927
3.20835,461.201
3.21179,459.991
3.21523,460.286
3.21867,459.115
3.22211,454.361
3.22556,453.569
3.229,451.126
3.23244,450.277
3.23588,448.855
3.23932,447.749
3.24276,446.031
3.2462,443.509
3.24965,441.872
3.25309,440.006
3.25653,438.904
3.25997,436.575
3.26341,436.305
3.26685,432.564
3.27029,431.984
3.27374,429.924
3.27718,430.394
3.28062,428.954
3.28406,424.707
3.2875,423.946
3.29094,423.072
3.29439,418.891
3.29783,419.706
3.30127,419.158
3.30471,416.336
3.30815,413.951
3.31159,414.11
3.31503,410.422
3.31848,411.11
3.32192,407.937
3.32536,407.406
3.3288,404.237
3.33224,399.134
3.33568,399.686
3.33912,396.116
3.34257,393.797
3.34601,393.518
3.34945,390.781
3.35289,388.051
3.35633,399.414
3.35977,392.857
3.36321,390.698
3.36666,395.682
3.3701,390.716
3.37354,386.984
3.37698,389.87
3.38042,385.01
3.38386,386.359
3.3873,382.326
3.39075,382.837
3.39419,380.658
3.39763,382.8
3.40107,380.651
3.40451,379.96
3.40795,379.296
3.4114,375.101
3.41484,375.759
3.41828,372.816
3.42172,373.915
3.42516,373.88
3.4286,370.702
3.43204,368.974
3.43549,370.306
3.43893,367.172
3.44237,368.1
3.44581,368.17
3.44925,364.484
3.45269,365.715
3.45613,362.374
3.45958,362.446
3.46302,363.133
3.46646,362.925
3.4699,360.661
3.47334,357.76
3.47678,358.806
3.48022,358.211
3.48367,358.387
3.48711,355.28
3.49055,355.705
3.49399,354.801
3.49743,354.366
3.50087,352.166
3.50431,351.152
3.50776,350.5
3.5112,350.265
3.51464,351.397
3.51808,350.264
3.52152,348.066
3.52496,349.255
3.5284,349.623
3.53185,347.138
3.53529,346.266
3.53873,347.019
3.54217,345.132
3.54561,344.332
3.54905,343.601
3.5525,341.604
3.55594,342.485
3.55938,340.463
3.56282,343.433
3.56626,340.366
3.5697,340.399
3.57314,339.119
3.57659,339.365
3.58003,339.698
3.58347,335.952
3.58691,337.775
3.59035,336.225
3.59379,336.62
3.59723,335.853
3.60068,333.85
3.60412,336.571
3.60756,333.248
3.611,335.32
3.61444,333.014
3.61788,332.478
3.62132,332.85
3.62477,331.011
3.62821,330.656
3.63165,330.995
3.63509,329.724
3.63853,330.872
3.64197,328.936
3.64541,329.038
3.64886,328.824
3.6523,328.794
3.65574,325.236
3.65918,327.557
3.66262,325.719
3.66606,327.32
3.66951,326.106
3.67295,327.249
3.67639,324.943
3.67983,325.68
3.68327,325.517
3.68671,322.401
3.69015,324.247
3.6936,322.921
3.69704,324.573
3.70048,322.068
3.70392,322.364
3.70736,321.512
3.7108,321.063
3.71424,322.14
3.71769,321.517
3.72113,322.724
3.72457,320.011
3.72801,318.691
3.73145,320.075
3.73489,320.645
3.73833,319.138
3.74178,319.856
3.74522,318.359
3.74866,320.07
3.7521,318.255
3.75554,318.331
3.75898,316.991
3.76242,318.173
3.76587,316.557
3.76931,316.263
3.77275,316.557
3.77619,316.044
3.77963,314.778
3.78307,316.736
3.78652,314.629
3.78996,315.652
3.7934,314.85
3.79684,313.202
3.80028,312.744
3.80372,313.857
3.80716,312.827
3.81061,316.157
3.81405,312.972
3.81749,311.807
3.82093,313.614
3.82437,311.314
3.82781,312.378
3.83125,312.141
3.8347,311.414
3.83814,311.335
3.84158,311.435
3.84502,310.458
3.84846,311.149
3.8519,312.087
3.85534,310.212
3.85879,309.934
3.86223,309.882
3.86567,311.503
3.86911,310.332
3.87255,309.864
3.87599,309.527
3.87943,308.942
3.88288,309.3
3.88632,310.302
3.88976,310.664
3.8932,308.964
3.89664,308.92
3.90008,307.942
3.90352,308.196
3.90697,307.737
3.91041,306.564
3.91385,309.154
3.91729,305.997
3.92073,306.488
3.92417,306.234
3.92762,306.837
3.93106,306.478
3.9345,306.935
3.93794,307.75
3.94138,306.228
3.94482,306.364
3.94826,303.967
3.95171,306.292
3.95515,306.437
3.95859,305.648
3.96203,305.334
3.96547,305.55
3.96891,305.161
3.97235,305.25
3.9758,302.584
3.97924,303.296
3.98268,303.89
3.98612,303.741
3.98956,302.962
3.993,302.47
3.99644,302.307
3.99989,302.573
4.00333,302.706
4.00677,303.775
4.01021,302.85
4.01365,301.383
4.01709,302.186
4.02053,303.08
4.02398,302.288
4.02742,301.448
4.03086,303.167
4.0343,302.47
4.03774,301.292
4.04118,301.195
4.04463,301.764
4.04807,301.739
4.05151,298.821
4.05495,301.274
4.05839,299.149
4.06183,300.004
4.06527,300.413
4.06872,301.038
4.07216,298.989
4.0756,298.715
4.07904,298.608
4.08248,298.621
4.08592,301.348
4.08936,299.33
4.09281,298.321
4.09625,301.202
4.09969,299.888
4.10313,300.001
4.10657,297.917
4.11001,298.016
4.11345,299.954
4.1169,298.115
4.12034,298.519
4.12378,298.091
4.12722,298.173
4.13066,298.274
4.1341,297.361
4.13754,297.553
4.14099,297.078
4.14443,296.331
4.14787,297.931
4.15131,298.36
4.15475,298.859
4.15819,296.978
4.16163,296.528
4.16508,296.509
4.16852,296.744
4.17196,295.103
4.1754,295.133
4.17884,296.965
4.18228,296.291
4.18573,296.94
4.18917,294.81
4.19261,295.961
4.19605,296.416
4.19949,295.771
4.20293,297.264
4.20637,291.756
4.20982,295.056
4.21326,303.532
4.2167,293.419
4.22014,293.406
4.22358,292.829
4.22702,291.667
4.23046,293.622
4.23391,292.196
4.23735,291.336
4.24079,292.253
4.24423,291.662
4.24767,293.649
4.25111,291.707
4.25455,292.356
4.258,290.229
4.26144,290.3
4.26488,290.725
4.26832,292.204
4.27176,290.024
4.2752,292.899
4.27864,290.429
4.28209,290.564
4.28553,291.403
4.28897,289.852
4.29241,290.796
4.29585,291.306
4.29929,289.731
4.30274,291.169
4.30618,289.25
4.30962,290.657
4.31306,288.259
4.3165,289.043
4.31994,288.392
4.32338,288.525
4.32683,289.058
4.33027,289.302
4.33371,289.167
4.33715,289.726
4.34059,287.607
4.34403,288.35
4.34747,287.317
4.35092,287.835
4.35436,287.939
4.3578,287.002
4.36124,288.622
4.36468,287.356
4.36812,289.199
4.37156,287.795
4.37501,286.788
4.37845,286.879
4.38189,287.853
4.38533,286.108
4.38877,288.401
4.39221,286.553
4.39565,286.354
4.3991,286.376
4.40254,285.925
4.40598,286.666
4.40942,286.497
4.41286,286.6
4.4163,286.242
4.41975,286.399
4.42319,284.556
4.42663,285.914
4.43007,285.6
4.43351,285.062
4.43695,286.8
4.44039,284.587
4.44384,284.131
4.44728,283.312
4.45072,284.662
4.45416,282.241
4.4576,283.302
4.46104,284.337
4.46448,284.276
4.46793,284.371
4.47137,283.985
4.47481,282.347
4.47825,282.667
4.48169,283.681
4.48513,284.039
4.48857,282.755
4.49202,283.051
4.49546,282.231
4.4989,282.672
4.50234,284.358
4.50578,281.914
4.50922,282.458
4.51266,281.165
4.51611,282.012
4.51955,281.898
4.52299,281.945
4.52643,281.298
4.52987,280.384
4.53331,279.922
4.53675,280.27
4.5402,280.825
4.54364,279.695
4.54708,279.436
4.55052,279.778
4.55396,278.589
4.5574,278.803
4.56085,279.251
4.56429,276.647
4.56773,279.028
4.57117,280.13
4.57461,278.764
4.57805,278.654
4.58149,277.954
4.58494,279.354
4.58838,277.972
4.59182,278.323
4.59526,278.13
4.5987,277.874
4.60214,278.116
4.60558,276.835
4.60903,276.9
4.61247,276.654
4.61591,277.011
4.61935,276.898
4.62279,276.796
4.62623,275.697
4.62967,275.364
4.63312,274.881
4.63656,274.348
4.64,274.647
4.64344,273.979
4.64688,273.953
4.65032,274.714
4.65376,275.269
4.65721,274.031
4.66065,275.239
4.66409,274.342
4.66753,273.581
4.67097,272.766
4.67441,273.713
4.67786,272.968
4.6813,273.378
4.68474,272.349
4.68818,273.228
4.69162,272.094
4.69506,270.692
4.6985,272.864
4.70195,271.804
4.70539,270.449
4.70883,271.802
4.71227,272.046
4.71571,269.988
4.71915,270.286
4.72259,269.66
4.72604,269.651
4.72948,271.27
4.73292,270.374
4.73636,269.031
4.7398,269.344
4.74324,268.969
4.74668,269.324
4.75013,269.024
4.75357,270.129
4.75701,269.853
4.76045,269.169
4.76389,267.035
4.76733,266.033
4.77077,267.317
4.77422,266.519
4.77766,267.283
4.7811,268.099
4.78454,267.027
4.78798,266.968
4.79142,265.553
4.79486,266.738
4.79831,265.212
4.80175,265.597
4.80519,265.436
4.80863,265.224
4.81207,265.034
4.81551,264.42
4.81896,265.968
4.8224,264.059
4.82584,265.266
4.82928,264.325
4.83272,263.817
4.83616,262.761
4.8396,263.473
4.84305,264.221
4.84649,264.025
4.84993,264.042
4.85337,261.329
4.85681,262.691
4.86025,263.051
4.86369,263.058
4.86714,261.427
4.87058,261.302
4.87402,261.153
4.87746,260.382
4.8809,261.674
4.88434,261.834
4.88778,260.353
4.89123,261.071
4.89467,260.984
4.89811,259.49
4.90155,258.802
4.90499,260.348
4.90843,259.704
4.91187,260.08
4.91532,259.421
4.91876,259.483
4.9222,260.192
4.92564,258.639
4.92908,258.452
4.93252,258.664
4.93597,257.298
4.93941,258.58
4.94285,259.304
4.94629,258.582
4.94973,256.77
4.95317,259.155
4.95661,256.58
4.96006,256.778
4.9635,258.321
4.96694,257.246
4.97038,256.801
4.97382,256.527
4.97726,255.056
4.9807,255.128
4.98415,254.23
4.98759,255.066
4.99103,253.503
4.99447,254.377
4.99791,253.496
5.00135,251.338
5.00479,250.697
5.00824,249.879
5.01168,248.803
5.01512,248.455
5.01856,241.884
5.022,239.122
5.02372,236.368