File: APS/data_viewing/WAXS-Control_3-3.csv
# #q, WAXS_int
1.46697,1059.91
1.47041,1066.14
1.47385,1068.53
1.47729,1075.41
1.48073,1080.5
1.48417,1086.91
1.48761,1095.07
1.49106,1092.71
1.4945,1095.48
1.49794,1102.98
1.50138,1105.36
1.50482,1100.87
1.50826,1107.72
1.51171,1109.74
1.51515,1113.23
1.51859,1117.51
1.52203,1119.44
1.52547,1119.64
1.52891,1122.7
1.53235,1125.46
1.5358,1123.03
1.53924,1131.43
1.54268,1134.47
1.54612,1144.38
1.54956,1136.22
1.553,1137.78
1.55644,1145.09
1.55989,1145.12
1.56333,1151.15
1.56677,1146.98
1.57021,1149
1.57365,1155.22
1.57709,1155.5
1.58053,1159.06
1.58398,1163.72
1.58742,1160.51
1.59086,1160.93
1.5943,1162.97
1.59774,1167.06
1.60118,1170.11
1.60462,1177.12
1.60807,1175.24
1.61151,1175.21
1.61495,1173.4
1.61839,1179.67
1.62183,1178.5
1.62527,1186.03
1.62872,1176.67
1.63216,1183.67
1.6356,1187.41
1.63904,1185.73
1.64248,1191.44
1.64592,1191.04
1.64936,1196.39
1.65281,1191.77
1.65625,1193.3
1.65969,1193.79
1.66313,1196.09
1.66657,1199.24
1.67001,1195.27
1.67345,1200.44
1.6769,1204.39
1.68034,1199.94
1.68378,1207.3
1.68722,1205.04
1.69066,1207.24
1.6941,1206.5
1.69754,1203.18
1.70099,1209.91
1.70443,1208.29
1.70787,1206.9
1.71131,1213.75
1.71475,1208.19
1.71819,1209.09
1.72163,1210.34
1.72508,1213.81
1.72852,1211.09
1.73196,1211.24
1.7354,1215.48
1.73884,1212.94
1.74228,1210.09
1.74572,1211.2
1.74917,1214.58
1.75261,1217.58
1.75605,1213
1.75949,1214.43
1.76293,1210.17
1.76637,1212.34
1.76982,1213.12
1.77326,1214.43
1.7767,1210.03
1.78014,1207.3
1.78358,1206.56
1.78702,1214.59
1.79046,1216.67
1.79391,1204.23
1.79735,1204.15
1.80079,1204.85
1.80423,1202.09
1.80767,1203.77
1.81111,1201.63
1.81455,1196.74
1.818,1197.54
1.82144,1196.49
1.82488,1193.56
1.82832,1195.12
1.83176,1193.33
1.8352,1191.56
1.83864,1190.64
1.84209,1188.38
1.84553,1186.95
1.84897,1186.09
1.85241,1179.13
1.85585,1176.67
1.85929,1176.51
1.86273,1175.51
1.86618,1173.65
1.86962,1169.1
1.87306,1170.6
1.8765,1171.84
1.87994,1164.22
1.88338,1161.2
1.88683,1161
1.89027,1156.78
1.89371,1150.67
1.89715,1151.08
1.90059,1147.66
1.90403,1144.67
1.90747,1144.31
1.91092,1139.7
1.91436,1132.9
1.9178,1133.35
1.92124,1131.16
1.92468,1128.57
1.92812,1123.05
1.93156,1123.07
1.93501,1116.43
1.93845,1113.43
1.94189,1111.26
1.94533,1110.35
1.94877,1107.81
1.95221,1099.73
1.95565,1097.86
1.9591,1091.82
1.96254,1092.06
1.96598,1086.98
1.96942,1082.49
1.97286,1080.27
1.9763,1080.25
1.97974,1075.54
1.98319,1071.97
1.98663,1067.77
1.99007,1056.77
1.99351,1056.76
1.99695,1056.68
2.00039,1052.5
2.00383,1048.43
2.00728,1049.22
2.01072,1041.19
2.01416,1040.76
2.0176,1032.24
2.02104,1031.16
2.02448,1030.22
2.02793,1024.34
2.03137,1021.21
2.03481,1018.84
2.03825,1012.56
2.04169,1007.89
2.04513,1007.12
2.04857,1003.82
2.05202,997.547
2.05546,995.42
2.0589,992.278
2.06234,991.175
2.06578,985.218
2.06922,981.606
2.07266,972.996
2.07611,976.757
2.07955,972.783
2.08299,967.867
2.08643,966.283
2.08987,962.43
2.09331,955.38
2.09675,957.468
2.1002,950.413
2.10364,945.965
2.10708,948.242
2.11052,941.483
2.11396,936.745
2.1174,930.383
2.12084,929.198
2.12429,927.596
2.12773,927.29
2.13117,922.198
2.13461,919.248
2.13805,914.729
2.14149,909.93
2.14494,907.03
2.14838,903.951
2.15182,902.989
2.15526,902.546
2.1587,896.485
2.16214,891.566
2.16558,891.321
2.16903,884.508
2.17247,883.264
2.17591,882.983
2.17935,879.186
2.18279,871.571
2.18623,870.116
2.18967,871.384
2.19312,865.755
2.19656,861.726
2.2,861.024
2.20344,857.629
2.20688,857.637
2.21032,854.799
2.21376,849.951
2.21721,849.909
2.22065,845.418
2.22409,843.463
2.22753,840.645
2.23097,838.102
2.23441,834.687
2.23785,832.037
2.2413,826.763
2.24474,829.629
2.24818,822.902
2.25162,823.201
2.25506,820.219
2.2585,819.465
2.26195,813.805
2.26539,811.966
2.26883,808.63
2.27227,806.847
2.27571,808.701
2.27915,802.056
2.28259,802.125
2.28604,799.606
2.28948,795.513
2.29292,796.41
2.29636,788.484
2.2998,790.084
2.30324,787.698
2.30668,785.159
2.31013,782.592
2.31357,779.953
2.31701,780.712
2.32045,776.774
2.32389,776.159
2.32733,774.007
2.33077,770.004
2.33422,770.054
2.33766,767.124
2.3411,765.985
2.34454,763.909
2.34798,761.115
2.35142,758.141
2.35486,759.7
2.35831,757.928
2.36175,754.862
2.36519,750.762
2.36863,749.531
2.37207,748.858
2.37551,747.21
2.37895,744.22
2.3824,745.656
2.38584,743.289
2.38928,739.79
2.39272,739.394
2.39616,735.606
2.3996,734.123
2.40305,734.443
2.40649,730.612
2.40993,729.818
2.41337,729.234
2.41681,723.023
2.42025,699.046
2.42369,763.74
2.42714,739.76
2.43058,728.716
2.43402,727.363
2.43746,723.05
2.4409,719.715
2.44434,719.134
2.44778,718.674
2.45123,718.173
2.45467,714.657
2.45811,713.297
2.46155,712.051
2.46499,707.473
2.46843,707.288
2.47187,711.482
2.47532,704.389
2.47876,702.067
2.4822,700.398
2.48564,700.857
2.48908,700.07
2.49252,699.336
2.49596,698.763
2.49941,697.236
2.50285,693.916
2.50629,695.791
2.50973,693.712
2.51317,694.121
2.51661,689.509
2.52006,690.576
2.5235,686.921
2.52694,688.421
2.53038,688.191
2.53382,686.188
2.53726,683.789
2.5407,681.319
2.54415,684.452
2.54759,681.678
2.55103,680.819
2.55447,679.5
2.55791,679.629
2.56135,680.043
2.56479,679.157
2.56824,673.992
2.57168,677.831
2.57512,679.722
2.57856,672.383
2.582,672.11
2.58544,677.652
2.58888,671.745
2.59233,671.764
2.59577,673.419
2.59921,669.179
2.60265,669.947
2.60609,669.145
2.60953,667.432
2.61297,664.269
2.61642,665.867
2.61986,664.679
2.6233,664.138
2.62674,665.471
2.63018,663.825
2.63362,662.337
2.63706,660.908
2.64051,662.694
2.64395,661.376
2.64739,660.187
2.65083,659.711
2.65427,656.807
2.65771,657.177
2.66116,656.669
2.6646,655.058
2.66804,656.015
2.67148,651.437
2.67492,654.164
2.67836,655.395
2.6818,651.295
2.68525,650.012
2.68869,653.743
2.69213,651.599
2.69557,654.66
2.69901,653.505
2.70245,647.868
2.70589,648.901
2.70934,652.105
2.71278,648.157
2.71622,646.109
2.71966,649.356
2.7231,645.198
2.72654,645.143
2.72998,646.109
2.73343,645.007
2.73687,646.263
2.74031,644.897
2.74375,642.728
2.74719,641.438
2.75063,641.453
2.75407,643.519
2.75752,639.687
2.76096,639.139
2.7644,637.426
2.76784,640.672
2.77128,639.472
2.77472,638.664
2.77817,636.216
2.78161,638.335
2.78505,636.92
2.78849,637.25
2.79193,633.28
2.79537,634.145
2.79881,633.859
2.80226,633.107
2.8057,632.334
2.80914,632.203
2.81258,630.352
2.81602,632.457
2.81946,630.902
2.8229,632.004
2.82635,625.822
2.82979,627.707
2.83323,627.029
2.83667,627.276
2.84011,626.001
2.84355,624.678
2.84699,623.472
2.85044,622.276
2.85388,622.782
2.85732,620.909
2.86076,622.297
2.8642,621.063
2.86764,617.552
2.87108,617.902
2.87453,617.246
2.87797,617.524
2.88141,615.103
2.88485,614.847
2.88829,615.071
2.89173,613.033
2.89518,611.198
2.89862,609.365
2.90206,605.312
2.9055,607.229
2.90894,607.373
2.91238,606.247
2.91582,603.662
2.91927,604.089
2.92271,602.646
2.92615,603.042
2.92959,601.223
2.93303,599.734
2.93647,596.948
2.93991,595.573
2.94336,594.087
2.9468,595.284
2.95024,592.88
2.95368,590.202
2.95712,593.121
2.96056,588.091
2.964,587.17
2.96745,584.904
2.97089,584.758
2.97433,583.147
2.97777,582.346
2.98121,579.961
2.98465,579.766
2.98809,580.068
2.99154,577.338
2.99498,573.591
2.99842,573.983
3.00186,570.958
3.0053,570.196
3.00874,569.886
3.01218,568.073
3.01563,566.152
3.01907,564.252
3.02251,562.853
3.02595,559.625
3.02939,560.707
3.03283,556.697
3.03628,558.434
3.03972,551.599
3.04316,550.793
3.0466,552.527
3.05004,547.528
3.05348,546.622
3.05692,546.855
3.06037,544.706
3.06381,541.826
3.06725,539.51
3.07069,537.823
3.07413,536.454
3.07757,533.414
3.08101,531.876
3.08446,532.18
3.0879,527.594
3.09134,530.061
3.09478,526.643
3.09822,525.386
3.10166,523.264
3.1051,519.408
3.10855,518.213
3.11199,515.487
3.11543,514.287
3.11887,511.343
3.12231,512.505
3.12575,513.138
3.12919,507.041
3.13264,503.284
3.13608,504.559
3.13952,501.358
3.14296,497.517
3.1464,496.4
3.14984,496.3
3.15329,492.094
3.15673,491.117
3.16017,488.585
3.16361,487.036
3.16705,485.248
3.17049,483.93
3.17393,482.595
3.17738,480.135
3.18082,477.521
3.18426,476.508
3.1877,474.396
3.19114,471.642
3.19458,471.178
3.19802,468.878
3.20147,468.979
3.20491,465.196
3.20835,459.607
3.21179,461.522
3.21523,460.688
3.21867,460.211
3.22211,455.263
3.22556,456.798
3.229,452.457
3.23244,451.478
3.23588,450.275
3.23932,447.674
3.24276,444.799
3.2462,445.827
3.24965,442.56
3.25309,441.153
3.25653,438.862
3.25997,436.905
3.26341,438.92
3.26685,433.52
3.27029,432.35
3.27374,430.635
3.27718,432.306
3.28062,428.916
3.28406,425.401
3.2875,426.754
3.29094,421.908
3.29439,421.724
3.29783,420.672
3.30127,419.503
3.30471,418.073
3.30815,414.616
3.31159,414.224
3.31503,412.532
3.31848,413.319
3.32192,409.369
3.32536,408.151
3.3288,405.481
3.33224,399.069
3.33568,399.768
3.33912,400.621
3.34257,396.279
3.34601,394.265
3.34945,393.779
3.35289,386.207
3.35633,400.836
3.35977,395.422
3.36321,392.038
3.36666,395.291
3.3701,393.038
3.37354,390.102
3.37698,389.393
3.38042,387.871
3.38386,387.33
3.3873,384.901
3.39075,383.007
3.39419,382.128
3.39763,382.89
3.40107,380.631
3.40451,379.679
3.40795,380.758
3.4114,379.01
3.41484,378.344
3.41828,374.926
3.42172,375.201
3.42516,374.964
3.4286,373.296
3.43204,371.903
3.43549,371.259
3.43893,368.81
3.44237,368.979
3.44581,369.159
3.44925,365.867
3.45269,366.158
3.45613,365.636
3.45958,363.922
3.46302,364.157
3.46646,362.993
3.4699,361.273
3.47334,360.868
3.47678,360.003
3.48022,360.724
3.48367,358.704
3.48711,357.864
3.49055,356.368
3.49399,355.817
3.49743,356.748
3.50087,354.566
3.50431,355.052
3.50776,353.455
3.5112,353.495
3.51464,353.183
3.51808,351.518
3.52152,350.433
3.52496,350.871
3.5284,350.493
3.53185,348.127
3.53529,347.47
3.53873,348.072
3.54217,346.052
3.54561,346.346
3.54905,345.884
3.5525,344.212
3.55594,343.982
3.55938,342.248
3.56282,344.171
3.56626,341.515
3.5697,342.969
3.57314,342.091
3.57659,340.085
3.58003,340.339
3.58347,340.272
3.58691,338.999
3.59035,339.422
3.59379,337.757
3.59723,336.647
3.60068,335.196
3.60412,335.504
3.60756,335.786
3.611,335.373
3.61444,335.289
3.61788,333.514
3.62132,335.112
3.62477,333.179
3.62821,333.275
3.63165,333.187
3.63509,332.793
3.63853,331.133
3.64197,330.21
3.64541,332.056
3.64886,330.001
3.6523,331.689
3.65574,328.666
3.65918,329.235
3.66262,329.827
3.66606,328.413
3.66951,328.112
3.67295,329.031
3.67639,326.217
3.67983,326.736
3.68327,327.09
3.68671,326.256
3.69015,325.005
3.6936,325.452
3.69704,326.913
3.70048,323.44
3.70392,324.744
3.70736,323.52
3.7108,324.938
3.71424,323.297
3.71769,322.761
3.72113,322.603
3.72457,323.603
3.72801,321.283
3.73145,321.335
3.73489,321.307
3.73833,320.265
3.74178,320.303
3.74522,319.295
3.74866,319.667
3.7521,320.816
3.75554,320.059
3.75898,319.371
3.76242,319.532
3.76587,318.266
3.76931,319.663
3.77275,319.129
3.77619,318.324
3.77963,317.974
3.78307,317.868
3.78652,316.963
3.78996,315.67
3.7934,317.163
3.79684,316.428
3.80028,314.218
3.80372,316.293
3.80716,314.304
3.81061,316.632
3.81405,315.363
3.81749,314.508
3.82093,315.197
3.82437,313.102
3.82781,315.077
3.83125,313.692
3.8347,314.538
3.83814,313.415
3.84158,313.19
3.84502,313.241
3.84846,313.028
3.8519,311.231
3.85534,312.518
3.85879,311.929
3.86223,312.651
3.86567,311.563
3.86911,311.352
3.87255,311.61
3.87599,311.368
3.87943,310.324
3.88288,311.57
3.88632,312.136
3.88976,310.89
3.8932,309.762
3.89664,310.876
3.90008,309.748
3.90352,309.271
3.90697,309.565
3.91041,308.586
3.91385,307.847
3.91729,308.455
3.92073,308.839
3.92417,308.61
3.92762,306.646
3.93106,308.004
3.9345,306.668
3.93794,308.629
3.94138,307.169
3.94482,307.246
3.94826,308.213
3.95171,307.795
3.95515,306.497
3.95859,307.079
3.96203,305.701
3.96547,306.466
3.96891,306.111
3.97235,307.347
3.9758,305.696
3.97924,305.692
3.98268,305.661
3.98612,306.055
3.98956,304.473
3.993,304.54
3.99644,304.62
3.99989,303.669
4.00333,304.198
4.00677,305.023
4.01021,305.852
4.01365,302.777
4.01709,303.964
4.02053,303.77
4.02398,303.726
4.02742,302.771
4.03086,303.677
4.0343,304.526
4.03774,302.809
4.04118,302.93
4.04463,302.664
4.04807,302.743
4.05151,302.101
4.05495,302.395
4.05839,300.798
4.06183,303.008
4.06527,301.433
4.06872,303.696
4.07216,302.551
4.0756,301.186
4.07904,300.775
4.08248,301.367
4.08592,302.678
4.08936,301.253
4.09281,300.784
4.09625,303.55
4.09969,300.256
4.10313,300.686
4.10657,300.235
4.11001,299.25
4.11345,300.14
4.1169,299.529
4.12034,300.51
4.12378,299.504
4.12722,299.41
4.13066,299.939
4.1341,299.979
4.13754,299.082
4.14099,300.168
4.14443,299.045
4.14787,300.247
4.15131,298.411
4.15475,299.956
4.15819,299.595
4.16163,296.985
4.16508,297.874
4.16852,298.11
4.17196,295.567
4.1754,297.754
4.17884,298.346
4.18228,298.213
4.18573,298.573
4.18917,296.236
4.19261,299.121
4.19605,298.993
4.19949,297.324
4.20293,297.628
4.20637,294.23
4.20982,294.646
4.21326,305.263
4.2167,295.387
4.22014,295.518
4.22358,294.493
4.22702,293.623
4.23046,295.785
4.23391,293.87
4.23735,293.122
4.24079,293.237
4.24423,291.835
4.24767,295.032
4.25111,294.353
4.25455,293.075
4.258,291.11
4.26144,291.264
4.26488,292.894
4.26832,293.12
4.27176,291.737
4.2752,293.471
4.27864,291.905
4.28209,292.514
4.28553,291.612
4.28897,290.735
4.29241,293.429
4.29585,292.439
4.29929,291.028
4.30274,291.122
4.30618,291.545
4.30962,290.585
4.31306,291.272
4.3165,289.926
4.31994,290.198
4.32338,290.532
4.32683,290.947
4.33027,291.868
4.33371,289.193
4.33715,289.882
4.34059,290.443
4.34403,290.406
4.34747,290.059
4.35092,289.464
4.35436,288.824
4.3578,289.967
4.36124,288.686
4.36468,288.749
4.36812,290.17
4.37156,289.134
4.37501,288.289
4.37845,287.803
4.38189,287.414
4.38533,288.061
4.38877,288.784
4.39221,287.095
4.39565,287.469
4.3991,287.915
4.40254,287.381
4.40598,286.99
4.40942,287.071
4.41286,287.327
4.4163,288.076
4.41975,287.394
4.42319,286.507
4.42663,286.921
4.43007,285.261
4.43351,286.705
4.43695,287.196
4.44039,285.456
4.44384,285.078
4.44728,284.904
4.45072,286.335
4.45416,284.586
4.4576,285.581
4.46104,286.187
4.46448,284.483
4.46793,284.428
4.47137,285.49
4.47481,283.497
4.47825,285.172
4.48169,283.766
4.48513,284.886
4.48857,284.466
4.49202,283.746
4.49546,283.424
4.4989,283.675
4.50234,284.316
4.50578,282.085
4.50922,283.831
4.51266,282.027
4.51611,282.757
4.51955,283.792
4.52299,283.447
4.52643,283.044
4.52987,281.266
4.53331,282.285
4.53675,281.809
4.5402,281.845
4.54364,281.206
4.54708,281.823
4.55052,280.216
4.55396,280.411
4.5574,281.16
4.56085,280.604
4.56429,278.275
4.56773,281.643
4.57117,280.273
4.57461,279.221
4.57805,279.435
4.58149,279.833
4.58494,279.749
4.58838,280.373
4.59182,279.515
4.59526,278.259
4.5987,278.686
4.60214,279.321
4.60558,277.741
4.60903,277.599
4.61247,277.563
4.61591,278.649
4.61935,277.736
4.62279,277.862
4.62623,276.474
4.62967,277.343
4.63312,275.854
4.63656,275.759
4.64,276.234
4.64344,275.555
4.64688,275.671
4.65032,275.388
4.65376,275.032
4.65721,275.39
4.66065,276.04
4.66409,274.587
4.66753,274.932
4.67097,274.481
4.67441,273.988
4.67786,274.669
4.6813,274.877
4.68474,274.348
4.68818,272.989
4.69162,273.842
4.69506,272.155
4.6985,273.347
4.70195,273.869
4.70539,272.958
4.70883,272.169
4.71227,272.966
4.71571,272.19
4.71915,271.275
4.72259,272.172
4.72604,271.912
4.72948,271.513
4.73292,270.557
4.73636,270.842
4.7398,270.775
4.74324,270.861
4.74668,270.576
4.75013,269.815
4.75357,269.703
4.75701,268.485
4.76045,269.635
4.76389,268.907
4.76733,267.99
4.77077,267.205
4.77422,268.805
4.77766,269.262
4.7811,267.955
4.78454,267.662
4.78798,267.494
4.79142,266.75
4.79486,266.973
4.79831,266.161
4.80175,266.091
4.80519,267.41
4.80863,266.121
4.81207,266.244
4.81551,265.612
4.81896,265.599
4.8224,266.033
4.82584,265.56
4.82928,265.255
4.83272,264.193
4.83616,265.096
4.8396,265.997
4.84305,266.564
4.84649,265.188
4.84993,264.916
4.85337,262.279
4.85681,264.736
4.86025,263.124
4.86369,263.092
4.86714,262.156
4.87058,263.727
4.87402,262.339
4.87746,263.087
4.8809,262.138
4.88434,262.426
4.88778,261.609
4.89123,261.498
4.89467,261.601
4.89811,261.662
4.90155,261.092
4.90499,261.678
4.90843,261.397
4.91187,260.606
4.91532,261.099
4.91876,258.774
4.9222,260.799
4.92564,258.777
4.92908,259.845
4.93252,259.598
4.93597,258.879
4.93941,259.723
4.94285,261.181
4.94629,259.583
4.94973,258.566
4.95317,258.701
4.95661,257.694
4.96006,259.072
4.9635,258.321
4.96694,258.289
4.97038,257.483
4.97382,258.221
4.97726,256.965
4.9807,256.02
4.98415,255.364
4.98759,257.218
4.99103,256.911
4.99447,255.909
4.99791,254.377
5.00135,254.268
5.00479,251.474
5.00824,248.891
5.01168,249.816
5.01512,247.445
5.01856,242.107
5.022,240.577
5.02372,230.569